Folder: openmsistream_short_course/xrd_example_data_files

Note: README.md
# SensorPush Activity
Code utilities for the SensorPush-based streaming activity at the OpenMSIStream short course

The OpenMSIStream short course will involve an example of a streaming workflow using [SensorPush HT.w sensors](https://www.sensorpush.com/products/p/ht-w). Participants will use code in this repository (based on the [`sensorpush-bleak`](https://github.com/cryptomcgrath/sensorpush-bleak) library) to simplify the process of connecting to their devices using the [`Bleak`](https://bleak.readthedocs.io/en/latest/index.html) Bluetooth Low Energy (LE) client and retrieiving timestamped temperature and humidity data.

## Installation

Create and activate a new Conda environment:

    conda create -n sensorpush python=3.9
    conda activate sensorpush

Clone this repository, cd in to it, and then install the dependencies from the requirements file:

    pip install -r requirements.txt

File: Ba(NO3)2.csv
'y-axis saved as y
'x,NN_StartingMaterials_Ba(NO3)2.raw
5,37
5.185858,34
5.371716,35
5.557574,37
5.743432,41
5.92929,21
6.115148,34
6.301006,32
6.486864,33
6.672722,26
6.85858,23
7.044438,24
7.230296,24
7.416154,21
7.602012,19
7.78787,28
7.973728,22
8.159586,29
8.345444,30
8.531302,30
8.71716,19
8.903018,11
9.088876,19
9.274734,20
9.460592,23
9.64645,16
9.832308,16
10.0182,22
10.204,19
10.3899,22
10.57574,17
10.7616,14
10.9475,18
11.1333,24
11.3192,18
11.50503,32
11.6909,22
11.8767,13
12.0626,28
12.2485,12
12.43432,18
12.6202,20
12.806,20
12.9919,14
13.1778,23
13.36361,15
13.5495,11
13.7353,11
13.9212,8
14.107,11
14.2929,15
14.4788,14
14.6646,12
14.8505,17
15.0363,12
15.22219,18
15.408,16
15.5939,23
15.7798,19
15.9656,21
16.15148,15
16.3373,15
16.5232,12
16.7091,13
16.8949,15
17.08077,15
17.2666,19
17.4525,17
17.6383,18
17.8242,11
18.01006,20
18.1959,15
18.3818,19
18.5676,15
18.7535,22
18.93935,97
19.1252,216
19.3111,26
19.4969,15
19.6828,12
19.86864,20
20.0545,21
20.2404,12
20.4262,16
20.6121,13
20.79793,19
20.9838,15
21.1696,15
21.3555,23
21.5414,19
21.72722,19
21.9131,57
22.0989,27
22.2848,17
22.4707,9
22.65651,13
22.8424,9
23.0282,17
23.2141,12
23.3999,18
23.5858,12
23.7717,9
23.9575,18
24.1434,14
24.3292,16
24.51509,26
24.7009,34
24.8868,17
25.0727,16
25.2585,17
25.44438,12
25.6302,13
25.8161,12
26.002,17
26.1878,13
26.37367,11
26.5595,23
26.7454,12
26.9312,32
27.1171,19
27.30296,11
27.4888,13
27.6747,14
27.8605,11
28.0464,18
28.23225,10
28.4181,12
28.604,16
28.7898,12
28.9757,16
29.16154,8
29.3474,19
29.5333,8
29.7191,10
29.905,20
30.09083,20
30.2767,17
30.4625,11
30.6484,17
30.8343,15
31.02012,10
31.206,86
31.3918,28
31.5777,12
31.7636,6
31.94941,9
32.1353,14
32.3211,17
32.507,13
32.6928,15
32.8787,18
33.0646,14
33.2504,10
33.4363,17
33.6221,8
33.80799,10
33.9938,7
34.1797,9
34.3656,12
34.5514,10
34.73728,10
34.9231,21
35.109,10
35.2949,13
35.4807,10
35.66657,17
35.8524,15
36.0383,19
36.2241,6
36.41,15
36.59586,17
36.7817,255
36.9676,34
37.1534,16
37.3393,18
37.52515,11
37.711,14
37.8969,13
38.0827,12
38.2686,14
38.45444,397
38.6403,133
38.8262,26
39.012,13
39.1979,13
39.38373,13
39.5696,8
39.7554,11
39.9413,9
40.1272,11
40.31302,13
40.4989,10
40.6847,5
40.8706,12
41.0565,10
41.24231,14
41.4282,10
41.614,12
41.7999,12
41.9857,9
42.1716,13
42.3575,10
42.5433,14
42.7292,9
42.915,8
43.10089,5
43.2867,15
43.4726,6
43.6585,15
43.8443,15
44.03018,13
44.216,7
44.4019,12
44.5878,16
44.7736,58
44.95947,10
45.1453,12
45.3312,12
45.517,12
45.7029,12
45.88876,8
46.0746,8
46.2605,15
46.4463,8
46.6322,7
46.81805,10
47.0039,13
47.1898,5
47.3756,8
47.5615,6
47.74734,14
47.9332,13
48.1191,6
48.3049,7
48.4908,7
48.67663,10
48.8625,13
49.0483,55
49.2342,12
49.4201,3
49.60592,10
49.7918,12
49.9776,7
50.1635,12
50.3494,30
50.53521,15
50.7211,4
50.9069,12
51.0928,5
51.2786,8
51.4645,10
51.6504,13
51.8362,28
52.0221,10
52.2079,10
52.39379,12
52.5796,3
52.7655,12
52.9514,7
53.1372,7
53.32308,9
53.5089,10
53.6948,6
53.8807,5
54.0665,10
54.25237,8
54.4382,11
54.6241,6
54.8099,11
54.9958,13
55.18166,7
55.3675,17
55.5534,35
55.7392,14
55.9251,10
56.11095,11
56.2968,12
56.4827,8
56.6685,10
56.8544,9
57.04024,9
57.2261,6
57.412,11
57.5978,13
57.7837,16
57.96953,12
58.1554,9
58.3412,12
58.5271,12
58.713,9
58.89882,14
59.0847,32
59.2705,68
59.4564,16
59.6423,12
59.82811,3
60.014,8
60.0326,7

File: ZrP_1.csv
'y-axis saved as y
'x,ML_Wallace_17122019_1_NN_1_ZrP_Crucible_12x16_14x161of2Crucibles_BlackPowder_5-60_4min_BkgSubtracted.raw
5,-23.0651
5.185858,-13.1443
5.371716,26.4066
5.557574,5.53134
5.743432,-2.53146
5.92929,-0.497528
6.115148,13.6331
6.301006,5.86047
6.486864,5.18457
6.672722,34.6053
6.85858,0.122849
7.044438,28.7371
7.230296,-13.5423
7.416154,16.6148
7.602012,4.8687
7.78787,21.7862
7.973728,-11.3493
8.159586,-1.65622
8.345444,24.0819
8.531302,-2.49301
8.71716,8.0288
8.903018,20.6473
9.088876,-5.86558
9.274734,-1.19438
9.460592,28.5735
9.64645,17.4382
9.832308,8.39951
10.0182,-4.54243
10.204,17.6123
10.3899,26.8638
10.57574,28.212
10.7616,-0.34304
10.9475,2.19859
11.1333,3.83694
11.3192,-8.42799
11.50503,23.4038
11.6909,13.3323
11.8767,15.3575
12.0626,3.47942
12.2485,16.6981
12.43432,-10.9866
12.6202,14.1477
12.806,15.3787
12.9919,7.70635
13.1778,4.13076
13.36361,13.6519
13.5495,2.26971
13.7353,-2.01573
13.9212,0.79554
14.107,24.7035
14.2929,-0.291786
14.4788,16.8096
14.6646,-8.99224
14.8505,26.784
15.0363,27.3111
15.22219,-1.06499
15.408,1.6556
15.5939,5.47291
15.7798,-0.613068
15.9656,-8.60233
16.15148,-1.52695
16.3373,6.4536
16.5232,3.44876
16.7091,7.5126
16.8949,2.56843
17.08077,17.7228
17.2666,6.97398
17.4525,2.32182
17.6383,29.7664
17.8242,6.30766
18.01006,0.945648
18.1959,-1.46084
18.3818,-6.89742
18.5676,-3.23728
18.7535,8.51958
18.93935,8.37315
19.1252,6.32343
19.3111,7.37042
19.4969,1.51414
19.6828,4.75457
19.86864,6.09171
20.0545,8.52557
20.2404,16.0561
20.4262,4.68343
20.6121,11.4074
20.79793,-6.77185
20.9838,9.14558
21.1696,11.1597
21.3555,18.3106
21.5414,9.1182
21.72722,18.0225
21.9131,0.0235519
22.0989,11.1213
22.2848,12.3158
22.4707,10.6069
22.65651,16.9948
22.8424,-3.52058
23.0282,-8.93925
23.2141,2.73878
23.3999,-5.48647
23.5858,11.385
23.7717,-1.64682
23.9575,-0.581924
24.1434,11.5797
24.3292,39.838
24.51509,17.1931
24.7009,8.64481
24.8868,-5.80672
25.0727,4.83846
25.2585,-1.41963
25.44438,14.419
25.6302,8.35431
25.8161,-3.61364
26.002,-17.4849
26.1878,9.1481
26.37367,17.8778
26.5595,1.704216
26.7454,14.6273
26.9312,6.64719
27.1171,1.35584
27.30296,9.75333
27.4888,9.24751
27.6747,1.83842
27.8605,101.526
28.0464,129.31
28.23225,131.191
28.4181,144.169
28.604,87.2437
28.7898,247.415
28.9757,161.6828
29.16154,27.0474
29.3474,4.50877
29.5333,1.06683
29.7191,8.72784
29.905,15.5001
30.09083,11.3691
30.2767,39.3348
30.4625,24.3973
30.6484,15.5564
30.8343,5.81226
31.02012,-3.83517
31.206,5.61412
31.3918,90.1601
31.5777,56.8028
31.7636,26.5423
31.94941,11.3784
32.1353,17.3113
32.3211,4.37458
32.507,8.08517
32.6928,3.89247
32.8787,5.79649
33.0646,6.67691
33.2504,14.624
33.4363,10.6677
33.6221,6.80822
33.80799,-1.98546
33.9938,22.0396
34.1797,32.1614
34.3656,13.38
34.5514,13.6952
34.73728,12.1072
34.9231,24.6158
35.109,33.2212
35.2949,415.923
35.4807,558.722
35.66657,55.6176
35.8524,10.6099
36.0383,14.6988
36.2241,-1.46864
36.41,9.63657
36.59586,10.8385
36.7817,10.1372
36.9676,1.53252
37.1534,-4.97541
37.3393,12.6134
37.52515,2.2989
37.711,-0.91888
37.8969,-9.23172
38.0827,4.2645
38.2686,-2.14257
38.45444,-11.4529
38.6403,12.3334
38.8262,1.21652
39.012,12.1963
39.1979,7.27282
39.38373,4.81699
39.5696,-1.00993
39.7554,-2.74013
39.9413,12.6264
40.1272,19.0896
40.31302,239.65
40.4989,93.3062
40.6847,26.0596
40.8706,20.9097
41.0565,8.85651
41.24231,2.90003
41.4282,1.04026
41.614,1.27722
41.7999,11.6109
41.9857,4.04126
42.1716,18.5684
42.3575,-4.807827
42.5433,1.9127
42.7292,11.7299
42.915,6.03461
43.10089,-6.079216
43.2867,16.831
43.4726,8.83795
43.6585,-0.0583954
43.8443,-0.858028
44.03018,-6.56094
44.216,7.83286
44.4019,17.3234
44.5878,-4.0894
44.7736,-12.5427
44.95947,5.86557
45.1453,4.37056
45.3312,2.97225
45.517,-2.32934
45.7029,-0.534214
45.88876,28.3576
46.0746,115.346
46.2605,28.4315
46.4463,11.6134
46.6322,6.89214
46.81805,1.26756
47.0039,-8.26031
47.1898,12.3085
47.3756,3.9741
47.5615,7.60096
47.74734,-5.81086
47.9332,8.87402
48.1191,18.0447
48.3049,0.909466
48.4908,2.8709
48.67663,10.9291
48.8625,-5.91608
49.0483,1.43713
49.2342,46.8871
49.4201,349.434
49.60592,179.077
49.7918,35.8171
49.9776,6.65393
50.1635,-0.412567
50.3494,22.6177
50.53521,21.7446
50.7211,15.9682
50.9069,18.2886
51.0928,-1.29432
51.2786,-8.78053
51.4645,8.82998
51.6504,-1.46279
51.8362,3.34115
52.0221,4.2418
52.2079,8.23917
52.39379,35.3333
52.5796,9.52406
52.7655,13.8116
52.9514,5.1958
53.1372,6.42547
53.32308,5.49041
53.5089,10.6521
53.6948,4.91044
53.8807,-0.734478
54.0665,12.7173
54.25237,-4.73416
54.4382,5.91107
54.6241,-4.34699
54.8099,6.49167
54.9958,5.27308
55.18166,1.5353
55.3675,5.89423
55.5534,15.3499
55.7392,8.90225
55.9251,-4.44867
56.11095,10.2971
56.2968,-0.860359
56.4827,1.07887
56.6685,6.11481
56.8544,8.21449
57.04024,-2.62209
57.2261,4.63805
57.412,11.9949
57.5978,12.741
57.7837,28.5225
57.96953,65.4007
58.1554,107.376
58.3412,43.4473
58.5271,11.6157
58.713,1.71291
58.89882,35.2353
59.0847,87.8543
59.2705,43.5701
59.4564,3.38259
59.6423,-6.7082
59.82811,-5.8707
60.014,-7.14143
60.0326,-7.87401

File: ZrP_2.csv
'y-axis saved as y
'x,ML_Wallace_03012020_1_NN_1_ZrP_900CCrucible_5-60_4min_BkgSubtracted.raw_1
5,-22.2261
5.185858,33.9764
5.371716,19.1646
5.557574,16.4668
5.743432,-12.4041
5.92929,-24.30896
6.115148,8.90005
6.301006,8.22299
6.486864,9.65991
6.672722,-19.7892
6.85858,-1.74052
7.044438,0.957825
7.230296,-0.760986
7.416154,-13.4902
7.602012,-1.6384
7.78787,-10.9699
7.973728,11.1372
8.159586,0.358246
8.345444,14.8246
8.531302,0.536179
8.71716,2.36173
8.903018,15.5705
9.088876,1.79707
9.274734,32.1376
9.460592,12.5921
9.64645,20.1605
9.832308,-2.15713
10.0182,7.63919
10.204,21.5494
10.3899,16.5737
10.57574,32.7118
10.7616,-3.03823
10.9475,4.31712
11.1333,9.78642
11.3192,-9.63034
11.50503,16.0668
11.6909,14.878
11.8767,13.8031
12.0626,10.6506
12.2485,-9.67508
12.43432,7.11317
12.6202,15.0154
12.806,11.9623
12.9919,-2.25379
13.1778,14.6441
13.36361,12.6559
13.5495,1.78165
13.7353,-5.72987
13.9212,3.74569
14.107,30.3352
14.2929,9.03864
14.4788,7.85603
14.6646,5.78738
14.8505,-5.16734
15.0363,-2.5153
15.22219,-8.51012
15.408,9.60901
15.5939,4.84209
15.7798,-5.81089
15.9656,16.6501
16.15148,-8.77502
16.3373,16.9138
16.5232,1.71665
16.7091,-8.3666
16.8949,1.09785
17.08077,15.6763
17.2666,8.3686
17.4525,4.1749
17.6383,7.09513
17.8242,9.12932
18.01006,5.27744
18.1959,-1.46048
18.3818,16.9155
18.5676,1.40551
18.7535,11.3599
18.93935,10.9953
19.1252,-5.25538
19.3111,2.60789
19.4969,10.5851
19.6828,3.67625
19.86864,0.881355
20.0545,8.20041
20.2404,-8.3666
20.4262,9.27464
20.6121,19.0298
20.79793,11.8989
20.9838,-0.117981
21.1696,-0.0209579
21.3555,9.19
21.5414,-8.48508
21.72722,15.4923
21.9131,11.5836
22.0989,1.78886
22.2848,8.10806
22.4707,8.54121
22.65651,5.94164
22.8424,16.3932
23.0282,-7.04139
23.2141,8.63802
23.3999,5.43137
23.5858,17.3387
23.7717,10.6194
23.9575,16.9033
24.1434,62.3012
24.3292,21.813
24.51509,22.4388
24.7009,9.1785
24.8868,8.03215
25.0727,4.99976
25.2585,-10.9187
25.44438,6.27679
25.6302,2.51571
25.8161,11.5865
26.002,14.7712
26.1878,6.06991
26.37367,-0.517464
26.5595,-12.9909
26.7454,16.6496
26.9312,4.40408
27.1171,4.759
27.30296,2.02975
27.4888,-0.585556
27.6747,22.9131
27.8605,142.526
28.0464,162.252
28.23225,219.093
28.4181,171.047
28.604,128.115
28.7898,402.298
28.9757,169.594
29.16154,27.0042
29.3474,5.52839
29.5333,1.16649
29.7191,-4.08147
29.905,19.1331
30.09083,27.3893
30.2767,41.7595
30.4625,31.2435
30.6484,0.841576
30.8343,20.5535
31.02012,11.3795
31.206,31.3193
31.3918,167.373
31.5777,125.541
31.7636,30.8226
31.94941,-3.78176
32.1353,-0.272175
32.3211,-1.64864
32.507,10.0888
32.6928,3.94027
32.8787,4.59975
33.0646,8.8135
33.2504,5.14119
33.4363,14.5828
33.6221,7.92871
33.80799,0.549728
33.9938,32.1868
34.1797,42.927
34.3656,49.7812
34.5514,30.7493
34.73728,20.8313
34.9231,40.0273
35.109,99.3372
35.2949,725.761
35.4807,591.299
35.66657,67.9507
35.8524,29.7164
36.0383,2.59601
36.2241,7.5896
36.41,7.2135
36.59586,14.6289
36.7817,11.1583
36.9676,2.80157
37.1534,0.558815
37.3393,12.43
37.52515,-3.58485
37.711,6.96809
37.8969,12.4632
38.0827,11.0722
38.2686,0.795227
38.45444,1.632164
38.6403,10.583
38.8262,3.64787
39.012,-5.17336
39.1979,-0.124054
39.38373,0.471218
39.5696,18.1804
39.7554,9.00359
39.9413,22.9407
40.1272,76.9918
40.31302,302.157
40.4989,82.4357
40.6847,42.8286
40.8706,18.3354
41.0565,21.9562
41.24231,13.6909
41.4282,13.5396
41.614,2.50222
41.7999,4.57879
41.9857,9.7693
42.1716,5.04474
42.3575,11.8254
42.5433,19.4856
42.7292,6.25984
42.915,5.14798
43.10089,4.15008
43.2867,9.26611
43.4726,10.4961
43.6585,3.84003
43.8443,9.2979
44.03018,0.869728
44.216,1.55549
44.4019,8.72385
44.5878,-4.94087
44.7736,7.508358
44.95947,3.07153
45.1453,4.74864
45.3312,10.5397
45.517,21.4447
45.7029,21.4637
45.88876,55.5966
46.0746,159.843
46.2605,45.2042
46.4463,16.6789
46.6322,2.26761
46.81805,22.9702
47.0039,8.78681
47.1898,7.58714
47.3756,8.98065
47.5615,-1.52062
47.74734,8.01347
47.9332,2.2893
48.1191,-5.80968
48.3049,13.2053
48.4908,0.309505
48.67663,-6.4785
48.8625,7.76697
49.0483,32.1264
49.2342,117.6
49.4201,454.187
49.60592,158.888
49.7918,39.7035
49.9776,16.6327
50.1635,43.6758
50.3494,29.8328
50.53521,33.1038
50.7211,35.4887
50.9069,8.98759
51.0928,2.60041
51.2786,13.3272
51.4645,9.16789
51.6504,3.97117
51.8362,11.526
52.0221,9.19483
52.2079,25.9776
52.39379,44.8743
52.5796,4.88491
52.7655,12.0095
52.9514,-0.751968
53.1372,2.60051
53.32308,7.06693
53.5089,1.39773
53.6948,18.8442
53.8807,4.40462
54.0665,10.079
54.25237,-1.13271
54.4382,9.76955
54.6241,-1.21425
54.8099,2.9159
54.9958,2.15999
55.18166,17.9833
55.3675,9.69147
55.5534,33.5136
55.7392,16.4496
55.9251,5.49957
56.11095,7.66349
56.2968,6.94136
56.4827,13.3332
56.6685,12.6656
56.8544,1.99644
57.04024,-0.100105
57.2261,0.75201
57.412,1.71807
57.5978,0.798073
57.7837,30.992
57.96953,98.2999
58.1554,115.722
58.3412,46.2575
58.5271,4.90728
58.713,18.671
58.89882,71.5486
59.0847,114.54
59.2705,76.6457
59.4564,15.8651
59.6423,-2.18636
59.82811,4.4912
60.014,-8.48528
60.0326,-9.16515

File: ZrP_3.csv
'y-axis saved as y
'x,ML_Wallace_04122019_1_NN_1_ZrP_CrucibleRetest_5-60_4min_BkgSubtracted.raw
5,-22.6053
5.185858,-17.0032
5.371716,-20.9939
5.557574,-7.88519
5.743432,13.3861
5.92929,-3.27051
6.115148,17.0169
6.301006,15.0945
6.486864,14.2442
6.672722,34.4661
6.85858,1.76009
7.044438,30.0024
7.230296,12.9804
7.416154,3.959198
7.602012,-13.9899
7.78787,-12.4717
7.973728,-12.8813
8.159586,26.8808
8.345444,-13.9428
8.531302,17.3058
8.71716,13.6265
8.903018,38.0193
9.088876,7.48436
9.274734,29.0215
9.460592,7.63081
9.64645,-13.6877
9.832308,11.0659
10.0182,15.8916
10.204,0.789505
10.3899,7.759552
10.57574,8.80176
10.7616,14.9161
10.9475,5.10259
11.1333,2.36123
11.3192,30.692
11.50503,9.09496
11.6909,10.57
11.8767,-8.88272
12.0626,10.7367
12.2485,11.4282
12.43432,-1.83961
12.6202,3.68138
12.806,12.2614
12.9919,0.861122
13.1778,-2.46702
13.36361,7.27699
13.5495,6.09314
13.7353,23.9814
13.9212,-6.0581
14.107,8.9745
14.2929,3.07925
14.4788,1.25615
14.6646,-3.4948
14.8505,19.8264
15.0363,7.97196
15.22219,16.9419
15.408,15.984
15.5939,8.09825
15.7798,13.2846
15.9656,-7.51097
16.15148,9.27812
16.3373,0.139366
16.5232,18.791
16.7091,-1.60603
16.8949,14.0691
17.08077,14.8164
17.2666,0.635834
17.4525,22.52742
17.6383,7.49115
17.8242,-7.47297
18.01006,11.6351
18.1959,2.81525
18.3818,21.0676
18.5676,5.39205
18.7535,13.7887
18.93935,17.9419
19.1252,10.8517
19.3111,16.8337
19.4969,12.8878
19.6828,-19.986
19.86864,0.0446243
20.0545,21.1474
20.2404,10.3222
20.4262,-3.47561
20.6121,-1.3808
20.79793,16.7862
20.9838,3.02528
21.1696,8.33654
21.3555,3.71996
21.5414,-6.82449
21.72722,9.46219
21.9131,25.6831
22.0989,6.9762
22.2848,9.34143
22.4707,7.77881
22.65651,-1.71166
22.8424,12.87
23.0282,-5.47617
23.2141,2.24981
23.3999,5.04793
23.5858,15.9182
23.7717,11.8606
23.9575,12.8752
24.1434,43.9619
24.3292,37.1208
24.51509,23.3518
24.7009,19.6549
24.8868,12.0302
25.0727,8.4777
25.2585,6.99731
25.44438,7.58907
25.6302,31.253
25.8161,4.98902
26.002,0.797218
26.1878,8.67757
26.37367,3.63007
26.5595,15.1451
26.7454,15.5433
26.9312,-3.98641
27.1171,3.55605
27.30296,14.8795
27.4888,8.242836
27.6747,39.6783
27.8605,99.1859
28.0464,92.7656
28.23225,195.418
28.4181,114.142
28.604,88.9377
28.7898,141.806
28.9757,132.747
29.16154,161.759
29.3474,212.844
29.5333,106.001
29.7191,48.23
29.905,47.5312
30.09083,52.9046
30.2767,66.3501
30.4625,31.8678
30.6484,2.45763
30.8343,-11.8804
31.02012,4.85372
31.206,31.66
31.3918,95.5384
31.5777,49.489
31.7636,24.5117
31.94941,22.6066
32.1353,18.7736
32.3211,-2.48039
32.507,10.1872
32.6928,9.92694
32.8787,13.7388
33.0646,7.62286
33.2504,27.579
33.4363,43.6074
33.6221,75.7079
33.80799,164.88
33.9938,367.125
34.1797,349.4422
34.3656,223.831
34.5514,152.293
34.73728,127.826
34.9231,107.431
35.109,152.109
35.2949,180.859
35.4807,109.681
35.66657,48.575
35.8524,13.5412
36.0383,33.5797
36.2241,3.69022
36.41,16.8729
36.59586,-1.87221
36.7817,0.421883
36.9676,7.49187
37.1534,-7.40562
37.3393,-7.58755
37.52515,8.30267
37.711,6.77486
37.8969,15.1091
38.0827,-0.484463
38.2686,2.50413
38.45444,10.3549
38.6403,4.27777
38.8262,7.27281
39.012,-4.65999
39.1979,-2.52065
39.38373,17.6908
39.5696,13.9745
39.7554,3.33027
39.9413,15.7582
40.1272,13.2583
40.31302,12.8305
40.4989,9.4749
40.6847,26.1914
40.8706,7.98011
41.0565,0.840935
41.24231,-2.22609
41.4282,11.779
41.614,7.85631
41.7999,-0.99427
41.9857,-1.7727
42.1716,-3.47898
42.3575,-6.11311
42.5433,5.64019
42.7292,9.78094
42.915,6.99384
43.10089,12.2789
43.2867,8.63607
43.4726,-0.934582
43.6585,-0.433094
43.8443,12.1282
44.03018,-4.28782
44.216,13.3683
44.4019,-2.09821
44.5878,3.75393
44.7736,6.67822
44.95947,-2.32534
45.1453,-0.256756
45.3312,-0.11602
45.517,0.0968628
45.7029,9.3819
45.88876,3.73907
46.0746,13.1684
46.2605,-2.33012
46.4463,18.2435
46.6322,8.88929
46.81805,12.6072
47.0039,6.39728
47.1898,-3.7405
47.3756,0.990593
47.5615,0.590553
47.74734,9.26266
47.9332,12.0069
48.1191,33.8233
48.3049,32.7119
48.4908,61.6726
48.67663,92.7054
48.8625,182.81
49.0483,219.988
49.2342,227.237
49.4201,162.558
49.60592,67.9519
49.7918,56.4177
49.9776,43.9555
50.1635,66.5656
50.3494,29.2478
50.53521,33.0021
50.7211,29.8286
50.9069,31.7272
51.0928,8.69801
51.2786,27.7409
51.4645,2.85602
51.6504,13.0433
51.8362,1.24584
52.0221,0.388088
52.2079,18.6025
52.39379,-3.11097
52.5796,11.9295
52.7655,1.51192
52.9514,0.166512
53.1372,0.89325
53.32308,10.6921
53.5089,-8.43682
53.6948,-3.49364
53.8807,29.5217
54.0665,15.6092
54.25237,10.7688
54.4382,-4.99942
54.6241,7.30451
54.8099,-2.43151
54.9958,9.73646
55.18166,4.97658
55.3675,9.28885
55.5534,16.6733
55.7392,10.1298
55.9251,9.65854
56.11095,11.2594
56.2968,2.93242
56.4827,0.0834808
56.6685,0.930309
56.8544,19.8493
57.04024,-0.159595
57.2261,8.90368
57.412,28.0391
57.5978,15.2467
57.7837,50.5264
57.96953,97.8783
58.1554,94.3023
58.3412,50.7984
58.5271,33.3667
58.713,10.0072
58.89882,4.71981
59.0847,11.5046
59.2705,33.3615
59.4564,6.29053
59.6423,-9.82646
59.82811,2.51957
60.014,-8.06226
60.0326,-8.30663